Folder: CHI/examples

Note: examples/3-EIS 0.6357V-NiCo2O4.txt
Sept. 7, 2022   15:44:29
A.C. Impedance
File: f:\2-Data Source:  Experiment
Instrument Model:  CHI760E
Header: 
Note: 

Init E (V) = 0.711
High Frequency (Hz) = 1e+5
Low Frequency (Hz) = 0.1
Imp SF
Amplitude (V) = 0.005
Quiet Time (sec) = 2
Cycles (.1-1Hz) = 1

Freq/Hz, Z'/ohm, Z"/ohm, Z/ohm, Phase/deg

9.995e+4, 1.271e+0, 4.937e-1, 1.364e+0, 21.2
8.252e+4, 1.236e+0, 4.121e-1, 1.303e+0, 18.4
6.812e+4, 1.212e+0, 3.426e-1, 1.260e+0, 15.8
5.625e+4, 1.196e+0, 2.812e-1, 1.229e+0, 13.2
4.644e+4, 1.186e+0, 2.305e-1, 1.208e+0, 11.0
3.833e+4, 1.179e+0, 1.879e-1, 1.193e+0, 9.1
3.164e+4, 1.174e+0, 1.524e-1, 1.184e+0, 7.4
2.612e+4, 1.172e+0, 1.221e-1, 1.178e+0, 5.9
2.153e+4, 1.170e+0, 9.656e-2, 1.174e+0, 4.7
1.777e+4, 1.170e+0, 7.456e-2, 1.172e+0, 3.6
1.470e+4, 1.170e+0, 5.580e-2, 1.172e+0, 2.7
1.211e+4, 1.172e+0, 3.983e-2, 1.172e+0, 1.9
1.001e+4, 1.174e+0, 2.533e-2, 1.174e+0, 1.2
8.252e+3, 1.176e+0, 1.227e-2, 1.176e+0, 0.6
6.812e+3, 1.179e+0, 8.813e-4, 1.179e+0, 0.0
5.625e+3, 1.182e+0, -8.952e-3, 1.182e+0, -0.4
4.643e+3, 1.186e+0, -1.743e-2, 1.186e+0, -0.8
3.833e+3, 1.189e+0, -2.565e-2, 1.189e+0, -1.2
3.164e+3, 1.193e+0, -3.378e-2, 1.193e+0, -1.6
2.612e+3, 1.198e+0, -4.173e-2, 1.198e+0, -2.0
2.153e+3, 1.203e+0, -4.976e-2, 1.204e+0, -2.4
1.777e+3, 1.208e+0, -5.826e-2, 1.209e+0, -2.8
1.470e+3, 1.214e+0, -6.787e-2, 1.216e+0, -3.2
1.211e+3, 1.220e+0, -7.875e-2, 1.223e+0, -3.7
1.001e+3, 1.227e+0, -8.981e-2, 1.230e+0, -4.2
8.252e+2, 1.235e+0, -1.019e-1, 1.239e+0, -4.7
6.836e+2, 1.244e+0, -1.170e-1, 1.249e+0, -5.4
5.615e+2, 1.253e+0, -1.354e-1, 1.261e+0, -6.2
4.639e+2, 1.265e+0, -1.569e-1, 1.275e+0, -7.1
3.809e+2, 1.278e+0, -1.810e-1, 1.291e+0, -8.1
3.174e+2, 1.294e+0, -2.083e-1, 1.311e+0, -9.1
2.588e+2, 1.313e+0, -2.394e-1, 1.335e+0, -10.3
2.148e+2, 1.336e+0, -2.744e-1, 1.364e+0, -11.6
1.758e+2, 1.363e+0, -3.128e-1, 1.398e+0, -12.9
1.465e+2, 1.393e+0, -3.538e-1, 1.438e+0, -14.2
1.221e+2, 1.432e+0, -4.007e-1, 1.487e+0, -15.6
9.766e+1, 1.486e+0, -4.504e-1, 1.552e+0, -16.9
8.254e+1, 1.554e+0, -5.030e-1, 1.634e+0, -17.9
6.813e+1, 1.632e+0, -5.611e-1, 1.726e+0, -19.0
5.623e+1, 1.719e+0, -6.205e-1, 1.828e+0, -19.8
4.642e+1, 1.810e+0, -6.745e-1, 1.932e+0, -20.4
3.831e+1, 1.909e+0, -7.180e-1, 2.040e+0, -20.6
3.162e+1, 2.024e+0, -7.502e-1, 2.158e+0, -20.3
2.610e+1, 2.150e+0, -7.679e-1, 2.283e+0, -19.7
2.154e+1, 2.282e+0, -7.683e-1, 2.408e+0, -18.6
1.778e+1, 2.412e+0, -7.505e-1, 2.526e+0, -17.3
1.468e+1, 2.532e+0, -7.173e-1, 2.632e+0, -15.8
1.212e+1, 2.642e+0, -6.706e-1, 2.725e+0, -14.2
1.000e+1, 2.737e+0, -6.151e-1, 2.805e+0, -12.7
8.254e+0, 2.819e+0, -5.574e-1, 2.873e+0, -11.2
6.813e+0, 2.888e+0, -5.005e-1, 2.931e+0, -9.8
5.623e+0, 2.945e+0, -4.458e-1, 2.979e+0, -8.6
4.642e+0, 2.994e+0, -3.948e-1, 3.020e+0, -7.5
3.831e+0, 3.035e+0, -3.476e-1, 3.055e+0, -6.5
3.162e+0, 3.067e+0, -3.044e-1, 3.082e+0, -5.7
2.610e+0, 3.091e+0, -2.650e-1, 3.103e+0, -4.9
2.154e+0, 3.113e+0, -2.301e-1, 3.121e+0, -4.2
1.778e+0, 3.135e+0, -1.985e-1, 3.141e+0, -3.6
1.468e+0, 3.150e+0, -1.699e-1, 3.

Note: examples/4.1-Cdl-10 mV s-1.txt
Sept. 7, 2022   15:46:33
Cyclic Voltammetry
File: f:\2-Data Source:  Experiment
Instrument Model:  CHI760E
Header: 
Note: 

Init E (V) = 0.1
High E (V) = 0.2
Low E (V) = 0.1
Init P/N = P
Scan Rate (V/s) = 0.01
Segment = 10
Sample Interval (V) = 0.001
Quiet Time (sec) = 2
Sensitivity (A/V) = 0.1

Segment 1:

Segment 2:

Segment 3:

Segment 4:

Segment 5:

Segment 6:

Segment 7:

Segment 8:

Segment 9:

Segment 10:

Potential/V, Current/A

0.100, -9.338e-3
0.101, -9.040e-3
0.102, -8.782e-3
0.103, -8.553e-3
0.104, -8.348e-3
0.105, -8.165e-3
0.106, -8.005e-3
0.107, -7.859e-3
0.108, -7.730e-3
0.109, -7.611e-3
0.110, -7.503e-3
0.111, -7.405e-3
0.112, -7.318e-3
0.113, -7.235e-3
0.114, -7.160e-3
0.115, -7.091e-3
0.116, -7.026e-3
0.117, -6.964e-3
0.118, -6.901e-3
0.119, -6.844e-3
0.120, -6.788e-3
0.121, -6.733e-3
0.122, -6.677e-3
0.123, -6.622e-3
0.124, -6.566e-3
0.125, -6.511e-3
0.126, -6.456e-3
0.127, -6.399e-3
0.128, -6.343e-3
0.129, -6.282e-3
0.130, -6.217e-3
0.131, -6.156e-3
0.132, -6.095e-3
0.133, -6.040e-3
0.134, -5.988e-3
0.135, -5.935e-3
0.136, -5.884e-3
0.137, -5.831e-3
0.138, -5.783e-3
0.139, -5.737e-3
0.140, -5.689e-3
0.141, -5.646e-3
0.142, -5.600e-3
0.143, -5.557e-3
0.144, -5.517e-3
0.145, -5.475e-3
0.146, -5.435e-3
0.147, -5.396e-3
0.148, -5.358e-3
0.149, -5.318e-3
0.150, -5.283e-3
0.151, -5.245e-3
0.152, -5.209e-3
0.153, -5.173e-3
0.154, -5.137e-3
0.155, -5.102e-3
0.156, -5.067e-3
0.157, -5.034e-3
0.158, -5.000e-3
0.159, -4.966e-3
0.160, -4.933e-3
0.161, -4.904e-3
0.162, -4.873e-3
0.163, -4.845e-3
0.164, -4.815e-3
0.165, -4.789e-3
0.166, -4.760e-3
0.167, -4.733e-3
0.168, -4.709e-3
0.169, -4.684e-3
0.170, -4.661e-3
0.171, -4.639e-3
0.172, -4.620e-3
0.173, -4.600e-3
0.174, -4.582e-3
0.175, -4.561e-3
0.176, -4.546e-3
0.177, -4.528e-3
0.178, -4.514e-3
0.179, -4.499e-3
0.180, -4.486e-3
0.181, -4.473e-3
0.182, -4.461e-3
0.183, -4.449e-3
0.184, -4.438e-3
0.185, -4.428e-3
0.186, -4.418e-3
0.187, -4.411e-3
0.188, -4.405e-3
0.189, -4.396e-3
0.190, -4.391e-3
0.191, -4.385e-3
0.192, -4.380e-3
0.193, -4.376e-3
0.194, -4.373e-3
0.195, -4.369e-3
0.196, -4.367e-3
0.197, -4.364e-3
0.198, -4.362e-3
0.199, -4.359e-3
0.200, -4.397e-3
0.199, -4.440e-3
0.198, -4.456e-3
0.197, -4.467e-3
0.196, -4.474e-3
0.195, -4.482e-3
0.194, -4.486e-3
0.193, -4.487e-3
0.192, -4.489e-3
0.191, -4.492e-3
0.190, -4.492e-3
0.189, -4.493e-3
0.188, -4.497e-3
0.187, -4.497e-3
0.186, -4.497e-3
0.185, -4.497e-3
0.184, -4.497e-3
0.183, -4.498e-3
0.182, -4.501e-3
0.181, -4.501e-3
0.180, -4.501e-3
0.179, -4.501e-3
0.178, -4.504e-3
0.177, -4.505e-3
0.176, -4.504e-3
0.175, -4.505e-3
0.174, -4.506e-3
0.173, -4.507e-3
0.172, -4.506e-3
0.171, -4.507e-3
0.170, -4.507e-3
0.169, -4.509e-3
0.168, -4.508e-3
0.167, -4.508e-3
0.166, -4.509e-3
0.165, -4.511e-3
0.164, -4.511e-3
0.163, -4.513e-3
0.162, -4.512e-3
0.161, -4.513e-3
0.160, -4.512e-3
0.159, -4.514e-3
0.158, -4.515e-3
0.157, -4.513e-3
0.156, -4.515e-3
0.155, -4.515e-3
0.154, -4.515e-3
0.153, -4.518e-3
0.152, -4.518e-3
0.151, -4.517e-3
0.150, -

Note: README.md
# CHI
辰华CHI电化学工作站测试数据一键绘图！

File: 2.3-LSV 1 M KOH OER OCP-0.1975 iR-95%-1.3Ω (0~0.8V) NiCo2O4.txt
Sept. 7, 2022   15:39:14
Linear Sweep Voltammetry
File: f:\2-Data Source:  Experiment
Instrument Model:  CHI760E
Header:
Note:

Init E (V) = 0
Final E (V) = 0.8
Scan Rate (V/s) = 0.005
Sample Interval (V) = 0.001
Quiet Time (sec) = 2
Sensitivity (A/V) = 0.1
Comp R (ohm) = 1.2

Potential/V, Current/A

0.000, -4.427e-3
0.003, -4.411e-3
0.006, -4.411e-3
0.009, -4.403e-3
0.012, -4.401e-3
0.015, -4.406e-3
0.018, -4.406e-3
0.021, -4.410e-3
0.024, -4.405e-3
0.027, -4.398e-3
0.030, -4.402e-3
0.033, -4.404e-3
0.036, -4.406e-3
0.039, -4.411e-3
0.042, -4.407e-3
0.045, -4.406e-3
0.048, -4.407e-3
0.051, -4.406e-3
0.054, -4.406e-3
0.057, -4.409e-3
0.060, -4.403e-3
0.063, -4.404e-3
0.066, -4.408e-3
0.069, -4.408e-3
0.072, -4.404e-3
0.075, -4.406e-3
0.078, -4.405e-3
0.081, -4.403e-3
0.084, -4.405e-3
0.087, -4.398e-3
0.090, -4.407e-3
0.093, -4.406e-3
0.096, -4.410e-3
0.099, -4.409e-3
0.102, -4.409e-3
0.105, -4.407e-3
0.108, -4.410e-3
0.111, -4.403e-3
0.114, -4.406e-3
0.117, -4.408e-3
0.120, -4.399e-3
0.123, -4.400e-3
0.126, -4.412e-3
0.129, -4.400e-3
0.132, -4.403e-3
0.135, -4.408e-3
0.138, -4.399e-3
0.141, -4.401e-3
0.144, -4.408e-3
0.147, -4.406e-3
0.150, -4.406e-3
0.153, -4.405e-3
0.156, -4.397e-3
0.159, -4.396e-3
0.162, -4.400e-3
0.165, -4.403e-3
0.168, -4.405e-3
0.171, -4.401e-3
0.174, -4.404e-3
0.177, -4.395e-3
0.180, -4.398e-3
0.183, -4.399e-3
0.186, -4.403e-3
0.189, -4.404e-3
0.192, -4.399e-3
0.195, -4.400e-3
0.198, -4.395e-3
0.201, -4.386e-3
0.204, -4.399e-3
0.207, -4.396e-3
0.210, -4.396e-3
0.213, -4.395e-3
0.216, -4.393e-3
0.219, -4.390e-3
0.222, -4.387e-3
0.225, -4.378e-3
0.228, -4.384e-3
0.231, -4.393e-3
0.234, -4.389e-3
0.237, -4.383e-3
0.240, -4.388e-3
0.243, -4.385e-3
0.246, -4.382e-3
0.249, -4.387e-3
0.252, -4.375e-3
0.255, -4.376e-3
0.258, -4.378e-3
0.261, -4.384e-3
0.264, -4.377e-3
0.267, -4.371e-3
0.270, -4.376e-3
0.273, -4.362e-3
0.276, -4.361e-3
0.279, -4.370e-3
0.282, -4.368e-3
0.285, -4.356e-3
0.288, -4.363e-3
0.291, -4.350e-3
0.294, -4.364e-3
0.297, -4.361e-3
0.300, -4.356e-3
0.303, -4.358e-3
0.306, -4.354e-3
0.309, -4.352e-3
0.312, -4.348e-3
0.315, -4.338e-3
0.318, -4.341e-3
0.321, -4.346e-3
0.324, -4.344e-3
0.327, -4.344e-3
0.330, -4.340e-3
0.333, -4.328e-3
0.336, -4.311e-3
0.339, -4.284e-3
0.342, -4.244e-3
0.345, -4.135e-3
0.348, -4.094e-3
0.351, -4.060e-3
0.354, -4.028e-3
0.357, -3.995e-3
0.360, -3.951e-3
0.363, -3.921e-3
0.366, -3.874e-3
0.369, -3.845e-3
0.372, -3.808e-3
0.375, -3.769e-3
0.378, -3.758e-3
0.381, -3.736e-3
0.384, -3.713e-3
0.387, -3.720e-3
0.390, -3.765e-3
0.393, -3.827e-3
0.396, -3.851e-3
0.399, -3.818e-3
0.402, -3.782e-3
0.405, -3.757e-3
0.408, -3.704e-3
0.411, -3.637e-3
0.414, -3.550e-3
0.417, -3.437e-3
0.420, -3.310e-3
0.423, -3.135e-3
0.426, -2.949e-3
0.429, -2.863e-3
0.432, -2.673e-3
0.435, -2.536e-3
0.438, -2.390e-3
0.441, -2.297e-3
0.444, -2.219e-3
0.447, -2.165e-3
0.450, -2.134e-3
0.453, -2.150e-3
0.456, -2.190e-3
0.459, -2.219e-3
0.462, -2.303e-3
0.465, -2.407e-3
0.468, -2.513e-3
0.471, -2.632e-3
0.474, -2.782e-3
0.477, -2.912e-3
0.480, -3.040e-3
0.483, -3.123e-3
0.486, -3.182e-3
0.489, -3.236e-3
0.492, -3.275e-3
0.495, -3.332e-3
0.498, -3.365e-3
0.501, -3.411e-3
0.504, -3.445e-3
0.507, -3.463e-3
0.510, -3.478e-3
0.513, -3.494e-3
0.516, -3.505e-3
0.519, -3.510e-3
0.522, -3.514e-3
0.525, -3.529e-3
0.528, -3.548e-3
0.531, -3.560e-3
0.534, -3.574e-3
0.537, -3.586e-3
0.540, -3.606e-3
0.543, -3.625e-3
0.546, -3.633e-3
0.549, -3.649e-3
0.552, -3.659e-3
0.555, -3.674e-3
0.558, -3.671e-3
0.561, -3.659e-3
0.564, -3.657e-3
0.567, -3.655e-3
0.570, -3.641e-3
0.573, -3.611e-3
0.576, -3.579e-3
0.579, -3.552e-3
0.582, -3.500e-3
0.585, -3.454e-3
0.588, -3.397e-3
0.591, -3.305e-3
0.594, -3.238e-3
0.597, -3.154e-3
0.600, -3.056e-3
0.603, -2.968e-3
0.606, -2.888e-3
0.609, -2.793e-3
0.612, -2.673e-3
0.615, -2.518e-3
0.618, -2.392e-3
0.621, -2.252e-3
0.624, -2.073e-3
0.627, -1.877e-3
0.630, -1.674e-3
0.633, -1.435e-3
0.636, -1.182e-3
0.639, -9.009e-4
0.642, -5.813e-4
0.645, -2.376e-4
0.648, 1.480e-4
0.651, 5.525e-4
0.654, 1.027e-3
0.657, 1.524e-3
0.660, 2.040e-3
0.663, 2.639e-3
0.666, 3.288e-3
0.669, 3.972e-3
0.672, 4.729e-3
0.675, 5.537e-3
0.678, 6.410e-3
0.681, 7.348e-3
0.684, 8.358e-3
0.687, 9.409e-3
0.690, 1.055e-2
0.693, 1.178e-2
0.696, 1.303e-2
0.699, 1.433e-2
0.702, 1.571e-2
0.705, 1.716e-2
0.708, 1.868e-2
0.711, 2.019e-2
0.714, 2.184e-2
0.717, 2.354e-2
0.720, 2.529e-2
0.723, 2.705e-2
0.726, 2.903e-2
0.729, 3.086e-2
0.732, 3.293e-2
0.735, 3.492e-2
0.738, 3.716e-2
0.741, 3.940e-2
0.744, 4.164e-2
0.747, 4.402e-2
0.750, 4.637e-2
0.753, 4.853e-2
0.756, 5.100e-2
0.759, 5.374e-2
0.762, 5.663e-2
0.765, 5.901e-2
0.768, 6.173e-2
0.771, 6.388e-2
0.774, 6.659e-2
0.777, 6.913e-2
0.780, 7.162e-2
0.783, 7.436e-2
0.786, 7.737e-2
0.789, 7.975e-2
0.792, 8.178e-2
0.795, 8.422e-2
0.798, 8.673e-2
0.799, 8.791e-2